File: static/data/TimeSeries.csv
Datapoint Number,Test Time,Cycle Number,Current,Potential,Step Index,Step Time,Charge Capacity,Discharge Capacity,Charge Energy,Discharge Energy,dV/dt,dQ/dV,Current Cycle Total Capacity,Current Cycle Total Energy,Test Differential capacity,Test Differential energy,Test Cumulative capacity,Test Cumulative energy,[Arbin] Datapoint Number,[Arbin] Test Time,[Arbin] Step Time,[Arbin] Date Time (excel format),[Arbin] Step Index,[Arbin] Cycle Number,[Arbin] Is Fast Capture,[Arbin] Current,[Arbin] Potential,[Arbin] Charge Capacity,[Arbin] Discharge Capacity,[Arbin] Charge Energy,[Arbin] Discharge Energy,[Arbin] dV/dT,[Arbin] Internal Resistance,[Arbin] AC Impedance,[Arbin] AC Impedance Phase Angle
1,60.0325,1,0.0,6.467822,1,59.7826,0.0,0.0,0.0,0.0,4.94066e-324,4.94066e-324,0.0,0.0,0.0,0.0,0.0,0.0,1,60.0325,59.7826,41164.6,1,1,False,0.0,6.467822,0.0,0.0,0.0,0.0,0.0,0.0,0.0,0.0
11,707.955,1,-0.197782,5.899643,6,600.405,0.0,0.0328699,0.0,0.197328,-0.000294015,-0.18602,0.0328699,0.197328,0.0328699,0.197328,0.0328699,0.197328,11,707.955,600.405,41164.6,6,1,False,-0.197782,5.899643,0.0,0.0328699,0.0,0.197328,-0.000303978,0.0,0.0,0.0
21,1308.24,1,-0.1974304,5.752044,6,1200.69,0.0,0.0657422,0.0,0.388713,-0.000218038,-0.251087,0.0657422,0.388713,0.0657422,0.388713,0.0657422,0.388713,21,1308.24,1200.69,41164.6,6,1,False,-0.1974304,5.752044,0.0,0.0657422,0.0,0.388713,-0.0003005442,0.0,0.0,0.0
31,1908.66,1,-0.197782,5.64066,6,1801.11,0.0,0.0986194,0.0,0.575924,-0.000172262,-0.317955,0.0986194,0.575924,0.0986194,0.575924,0.0986194,0.575924,31,1908.66,1801.11,41164.6,6,1,False,-0.197782,5.64066,0.0,0.0986194,0.0,0.575924,-0.000241955,0.0,0.0,0.0
41,2508.97,1,-0.198134,5.54906,6,2401.42,0.0,0.131501,0.0,0.759848,-0.000136908,-0.400009,0.131501,0.759848,0.131501,0.759848,0.131501,0.759848,41,2508.97,2401.42,41164.6,6,1,False,-0.198134,5.54906,0.0,0.131501,0.0,0.759848,-0.000119908,0.0,0.0,0.0
51,2969.12,1,0.0,5.76452,7,90.0959,0.0,0.151764,0.0,0.871778,0.000405342,0.0,0.151764,0.871778,0.151764,0.871778,0.151764,0.871778,51,2969.12,90.0959,41164.6,7,1,False,0.0,5.76452,0.0,0.151764,0.0,0.871778,0.000358514,0.0,0.0,0.0
61,3269.52,1,0.0,5.811692,7,390.499,0.0,0.151764,0.0,0.871778,0.00010122,0.0,0.151764,0.871778,0.151764,0.871778,0.151764,0.871778,61,3269.52,390.499,41164.6,7,1,False,0.0,5.811692,0.0,0.151764,0.0,0.871778,0.000120524,0.0,0.0,0.0
71,3569.88,1,0.0,5.832995,7,690.854,0.0,0.151764,0.0,0.871778,6.0784e-05,0.0,0.151764,0.871778,0.151764,0.871778,0.151764,0.871778,71,3569.88,690.854,41164.6,7,1,False,0.0,5.832995,0.0,0.151764,0.0,0.871778,5.94394e-05,0.0,0.0,0.0
81,3870.19,1,0.0,5.847603,7,991.165,0.0,0.151764,0.0,0.871778,3.04106e-05,0.0,0.151764,0.871778,0.151764,0.871778,0.151764,0.871778,81,3870.19,991.165,41164.6,7,1,False,0.0,5.847603,0.0,0.151764,0.0,0.871778,-5.99038e-05,0.0,0.0,0.0
91,4170.49,1,0.0,5.859776,7,1291.47,0.0,0.151764,0.0,0.871778,4.05334e-05,0.0,0.151764,0.871778,0.151764,0.871778,0.151764,0.871778,91,4170.49,1291.47,41164.6,7,1,False,0.0,5.859776,0.0,0.151764,0.0,0.871778,6.0749e-05,0.0,0.0,0.0
101,4470.8,1,0.0,5.86982,7,1591.77,0.0,0.151764,0.0,0.871778,4.05155e-05,0.0,0.151764,0.871778,0.151764,0.871778,0.151764,0.871778,101,4470.8,1591.77,41164.6,7,1,False,0.0,5.86982,0.0,0.151764,0.0,0.871778,0.000118446,0.0,0.0,0.0
111,4740.2,2,0.203087,6.17262,3,60.0016,0.00338998,0.0,0.0208035,0.0,0.00495021,0.0114132,-0.00338998,-0.0208035,0.148374,0.850975,0.155154,0.892582,111,4740.2,60.0016,41164.6,3,2,False,0.203087,6.17262,0.00338998,0.0,0.0208035,0.0,0.0007535657,0.0,0.0,0.0
121,5340.45,2,0.203087,6.385045,3,660.251,0.0372685,0.0,0.234095,0.0,0.000273744,0.206092,-0.0372685,-0.234095,0.114495,0.637684,0.189032,1.10587,121,5340.45,660.251,41164.6,3,2,False,0.203087,6.385045,0.0372685,0.0,0.234095,0.0,0.000301557,0.0,0.0,0.0
131,5940.75,2,0.203087,6.55395,3,1260.55,0.0711369,0.0,0.45314,0.0,0.000304291,0.186361,-0.0711369,-0.45314,0.0806269,0.418639,0.222901,1.32492,131,5940.75,1260.55,41164.6,3,2,False,0.203087,6.55395,0.0711369,0.0,0.45314,0.0,0.000300251,0.0,0.0,0.0
141,6508.06,2,0.132759,6.59777,4,420.297,0.0984306,0.0,0.633038,0.0,0.0,4.94066e-324,-0.0984306,-0.633038,0.0533333,0.23874,0.250194,1.50482,141,6508.06,420.297,41164.6,4,2,False,0.132759,6.59777,0.0984306,0.0,0.633038,0.0,6.06534e-05,0.0,0.0,0.0
151,7108.4,2,0.07930983,6.598074,4,1020.63,0.115747,0.0,0.747284,0.0,5.06758e-06,4.49503,-0.115747,-0.747284,0.0360173,0.124494,0.26751,1.61906,151,7108.4,1020.63,41164.7,4,2,False,0.07930983,6.598074,0.115747,0.0,0.747284,0.0,6.065228e-05,0.0,0.0,0.0
161,7708.66,2,0.0515303,6.59747,4,1620.9,0.126483,0.0,0.818122,0.0,0.0,4.94066e-324,-0.126483,-0.818122,0.0252807,0.0536565,0.278247,1.6899,161,7708.66,1620.9,41164.7,4,2,False,0.0515303,6.59747,0.126483,0.0,0.818122,0.0,-5.97237e-05,0.0,0.0,0.0
171,8308.99,2,0.0353549,6.59777,4,2221.23,0.133626,0.0,0.865246,0.0,0.0,4.94066e-324,-0.133626,-0.865246,0.0181383,0.00653254,0.285389,1.73702,171,8308.99,2221.23,41164.7,4,2,False,0.0353549,6.59777,0.133626,0.0,0.865246,0.0,0.0,0.0,0.0,0.0
181,8909.28,2,0.0265639,6.59777,4,2821.52,0.138745,0.0,0.899024,0.0,0.0,4.94066e-324,-0.138745,-0.899024,0.0130187,-0.0272461,0.290509,1.7708,181,8909.28,2821.52,41164.7,4,2,False,0.0265639,6.59777,0.138745,0.0,0.899024,0.0,-5.917927e-05,0.0,0.0,0.0
191,9488.81,2,-0.196024,6.001288,5,540.232,0.139024,0.0295438,0.900861,0.18131,-0.000400586,-0.136184,-0.10948,-0.719551,0.042284,0.152227,0.320331,1.95395,191,9488.81,540.232,41164.7,5,2,False,-0.196024,6.001288,0.139024,0.0295438,0.900861,0.18131,-0.0004234356,0.0,0.0,0.0
201,10089.1,2,-0.196727,5.80287,5,1140.56,0.139024,0.0623805,0.900861,0.374944,-0.000288956,-0.189245,-0.0766431,-0.525917,0.0751208,0.345861,0.353168,2.14758,201,10089.1,1140.56,41164.7,5,2,False,-0.196727,5.80287,0.139024,0.0623805,0.900861,0.374944,-0.000291571,0.0,0.0,0.0
211,10689.7,2,-0.197079,5.644921,5,1741.13,0.139024,0.0952253,0.900861,0.56289,-0.00025337,-0.216096,-0.0437983,-0.337972,0.107966,0.533807,0.386013,2.33553,211,10689.7,1741.13,41164.7,5,2,False,-0.197079,5.644921,0.139024,0.0952253,0.900861,0.56289,-0.000302047,0.0,0.0,0.0
221,11290.1,2,-0.197079,5.52745,5,2341.53,0.139024,0.128061,0.900861,0.746192,-0.000162302,-0.337031,-0.0109622,-0.15467,0.140802,0.717109,0.418849,2.51883,221,11290.1,2341.53,41164.7,5,2,False,-0.197079,5.52745,0.139024,0.128061,0.900861,0.746192,-0.000242691,0.0,0.0,0.0
231,11678.3,2,0.0,5.79708,6,210.177,0.139024,0.137798,0.900861,0.799874,0.000253324,0.0,-0.00122597,-0.100987,0.150538,0.770791,0.428585,2.57251,231,11678.3,210.177,41164.7,6,2,False,0.0,5.79708,0.139024,0.137798,0.900861,0.799874,0.000349856,0.0,0.0,0.0
241,11978.7,2,0.0,5.8266,6,510.575,0.139024,0.137798,0.900861,0.799874,0.000121542,0.0,-0.00122597,-0.100987,0.150538,0.770791,0.428585,2.57251,241,11978.7,510.575,41164.7,6,2,False,0.0,5.8266,0.139024,0.137798,0.900861,0.799874,0.0004234225,0.0,0.0,0.0
251,12279,2,0.0,5.841516,6,810.895,0.139024,0.137798,0.900861,0.799874,7.09729e-05,0.0,-0.00122597,-0.100987,0.150538,0.770791,0.428585,2.57251,251,12279,810.895,41164.7,6,2,False,0.0,5.841516,0.139024,0.137798,0.900861,0.799874,0.0002381609,0.0,0.0,0.0
261,12579.4,2,0.0,5.8546,6,1111.26,0.139024,0.137798,0.900861,0.799874,3.03793e-05,0.0,-0.00122597,-0.100987,0.150538,0.770791,0.428585,2.57251,261,12579.4,1111.26,41164.7,6,2,False,0.0,5.8546,0.139024,0.137798,0.900861,0.799874,0.0005477888,0.0,0.0,0.0
271,12879.7,2,0.0,5.86373,6,1411.6,0.139024,0.137798,0.900861,0.799874,5.07231e-05,0.0,-0.00122597,-0.100987,0.150538,0.770791,0.428585,2.57251,271,12879.7,1411.6,41164.7,6,2,False,0.0,5.86373,0.139024,0.137798,0.900861,0.799874,0.000120287,0.0,0.0,0.0
281,13180,2,0.0,5.870427,6,1711.9,0.139024,0.137798,0.900861,0.799874,-2.02994e-05,-0.0,-0.00122597,-0.100987,0.150538,0.770791,0.428585,2.57251,281,13180,1711.9,41164.7,6,2,False,0.0,5.870427,0.139024,0.137798,0.900861,0.799874,-0.000121274,0.0,0.0,0.0
291,13569.4,3,0.203439,6.284921,3,300.148,0.0169668,0.0,0.105528,0.0,0.000334752,0.168908,-0.0169668,-0.105528,0.133571,0.665263,0.445552,2.67804,291,13569.4,300.148,41164.7,3,3,False,0.203439,6.284921,0.0169668,0.0,0.105528,0.0,0.000419536,0.0,0.0,0.0
301,14169.9,3,0.203087,6.45808,3,900.569,0.050915,0.0,0.321876,0.0,0.000289028,0.195217,-0.050915,-0.321876,0.0996229,0.448915,0.4795,2.89439,301,14169.9,900.569,41164.7,3,3,False,0.203087,6.45808,0.050915,0.0,0.321876,0.0,0.0004260994,0.0,0.0,0.0
311,14700.6,3,0.0,6.316571,4,60.0664,0.077512,0.0,0.495489,0.0,-0.000820245,-0.0,-0.077512,-0.495489,0.0730259,0.275303,0.506097,3.068,311,14700.6,60.0664,41164.7,4,3,False,0.0,6.316571,0.077512,0.0,0.495489,0.0,-0.0006645788,0.0,0.0,0.0
321,15000.9,3,0.0,6.25388,4,360.443,0.077512,0.0,0.495489,0.0,-4.05822e-05,-0.0,-0.077512,-0.495489,0.0730259,0.275303,0.506097,3.068,321,15000.9,360.443,41164.7,4,3,False,0.0,6.25388,0.077512,0.0,0.495489,0.0,0.0,0.0,0.0,0.0
331,15301.2,3,0.0,6.23471,4,660.669,0.077512,0.0,0.495489,0.0,0.0,4.94066e-324,-0.077512,-0.495489,0.0730259,0.275303,0.506097,3.068,331,15301.2,660.669,41164.7,4,3,False,0.0,6.23471,0.077512,0.0,0.495489,0.0,-6.00907e-05,0.0,0.0,0.0
341,15601.7,3,0.0,6.22284,4,961.15,0.077512,0.0,0.495489,0.0,-4.05018e-05,-0.0,-0.077512,-0.495489,0.0730259,0.275303,0.506097,3.068,341,15601.7,961.15,41164.7,4,3,False,0.0,6.22284,0.077512,0.0,0.495489,0.0,-0.0001205543,0.0,0.0,0.0
351,15902.1,3,0.0,6.21736,4,1261.61,0.077512,0.0,0.495489,0.0,-2.02406e-05,-0.0,-0.077512,-0.495489,0.0730259,0.275303,0.506097,3.068,351,15902.1,1261.61,41164.8,4,3,False,0.0,6.21736,0.077512,0.0,0.495489,0.0,5.96052e-05,0.0,0.0,0.0
361,16202.5,3,0.0,6.21097,4,1562.02,0.077512,0.0,0.495489,0.0,1.01358e-05,0.0,-0.077512,-0.495489,0.0730259,0.275303,0.506097,3.068,361,16202.5,1562.02,41164.8,4,3,False,0.0,6.21097,0.077512,0.0,0.495489,0.0,-0.0001814862,0.0,0.0,0.0
371,16560.6,3,-0.196375,5.893556,5,120.069,0.077512,0.00657942,0.495489,0.0390934,-0.000674313,-0.081371,-0.0709326,-0.456395,0.0796053,0.314396,0.512677,3.1071,371,16560.6,120.069,41164.8,5,3,False,-0.196375,5.893556,0.077512,0.00657942,0.495489,0.0390934,-0.000545154,0.0,0.0,0.0
381,17160.9,3,-0.197079,5.682353,5,720.356,0.077512,0.0394611,0.495489,0.229026,-0.000273746,-0.199858,-0.0380509,-0.266462,0.112487,0.504329,0.545558,3.29703,381,17160.9,720.356,41164.8,5,3,False,-0.197079,5.682353,0.077512,0.0394611,0.495489,0.229026,-0.000302413,0.0,0.0,0.0
391,17761.3,3,-0.196375,5.54084,5,1320.73,0.077512,0.0723239,0.495489,0.413277,-0.000182545,-0.299372,-0.00518808,-0.0822119,0.14535,0.688579,0.578421,3.48128,391,17761.3,1320.73,41164.8,5,3,False,-0.196375,5.54084,0.077512,0.0723239,0.495489,0.413277,-0.000238982,0.0,0.0,0.0
401,18177.1,3,0.0,5.79556,6,180.192,0.077512,0.0852214,0.495489,0.484469,0.000212585,0.0,0.00770941,-0.0110195,0.158247,0.759772,0.591319,3.55247,401,18177.1,180.192,41164.8,6,3,False,0.0,5.79556,0.077512,0.0852214,0.495489,0.484469,0.000243468,0.0,0.0,0.0
411,18477.5,3,0.0,5.82691,6,480.59,0.077512,0.0852214,0.495489,0.484469,3.04399e-05,0.0,0.00770941,-0.0110195,0.158247,0.759772,0.591319,3.55247,411,18477.5,480.59,41164.8,6,3,False,0.0,5.82691,0.077512,0.0852214,0.495489,0.484469,6.02765e-05,0.0,0.0,0.0
421,18777.8,3,0.0,5.842125,6,780.868,0.077512,0.0852214,0.495489,0.484469,1.01412e-05,0.0,0.00770941,-0.0110195,0.158247,0.759772,0.591319,3.55247,421,18777.8,780.868,41164.8,6,3,False,0.0,5.842125,0.077512,0.0852214,0.495489,0.484469,-0.000118718,0.0,0.0,0.0
431,19078.1,3,0.0,5.852472,6,1081.18,0.077512,0.0852214,0.495489,0.484469,3.04166e-05,0.0,0.00770941,-0.0110195,0.158247,0.759772,0.591319,3.55247,431,19078.1,1081.18,41164.8,6,3,False,0.0,5.852472,0.077512,0.0852214,0.495489,0.484469,-6.074569e-05,0.0,0.0,0.0
441,19378.4,3,0.0,5.8613,6,1381.46,0.077512,0.0852214,0.495489,0.484469,-1.01307e-05,-0.0,0.00770941,-0.0110195,0.158247,0.759772,0.591319,3.55247,441,19378.4,1381.46,41164.8,6,3,False,0.0,5.8613,0.077512,0.0852214,0.495489,0.484469,0.000299196,0.0,0.0,0.0
451,19678.8,3,0.0,5.86708,6,1681.9,0.077512,0.0852214,0.495489,0.484469,1.01292e-05,0.0,0.00770941,-0.0110195,0.158247,0.759772,0.591319,3.55247,451,19678.8,1681.9,41164.8,6,3,False,0.0,5.86708,0.077512,0.0852214,0.495489,0.484469,5.99077e-05,0.0,0.0,0.0
461,20038.3,4,0.203439,6.264227,3,240.209,0.0135748,0.0,0.0842263,0.0,0.000374934,0.150922,-0.0135748,-0.0842263,0.144672,0.675545,0.604893,3.6367,461,20038.3,240.209,41164.8,3,4,False,0.203439,6.264227,0.0135748,0.0,0.0842263,0.0,0.000308329,0.0,0.0,0.0
471,20638.4,4,0.203439,6.44317,3,840.395,0.0474894,0.0,0.299816,0.0,0.000289108,0.195461,-0.0474894,-0.299816,0.110758,0.459956,0.638808,3.85229,471,20638.4,840.395,41164.8,3,4,False,0.203439,6.44317,0.0474894,0.0,0.299816,0.0,0.000358526,0.0,0.0,0.0
481,21203.6,4,0.0,6.33635,4,30.0745,0.0776742,0.0,0.49663,0.0,-0.0084932,-0.0,-0.0776742,-0.49663,0.0805731,0.263141,0.668993,4.0491,481,21203.6,30.0745,41164.8,4,4,False,0.0,6.33635,0.0776742,0.0,0.49663,0.0,-0.00108204,0.0,0.0,0.0
491,21504,4,0.0,6.2484,4,330.519,0.0776742,0.0,0.49663,0.0,-7.08637e-05,-0.0,-0.0776742,-0.49663,0.0805731,0.263141,0.668993,4.0491,491,21504,330.519,41164.8,4,4,False,0.0,6.2484,0.0776742,0.0,0.49663,0.0,0.000120726,0.0,0.0,0.0
501,21804.4,4,0.0,6.225273,4,630.855,0.0776742,0.0,0.49663,0.0,-0.000111523,-0.0,-0.0776742,-0.49663,0.0805731,0.263141,0.668993,4.0491,501,21804.4,630.855,41164.8,4,4,False,0.0,6.225273,0.0776742,0.0,0.49663,0.0,-0.0003043071,0.0,0.0,0.0
511,22104.7,4,0.0,6.21523,4,931.174,0.0776742,0.0,0.49663,0.0,-3.04167e-05,-0.0,-0.0776742,-0.49663,0.0805731,0.263141,0.668993,4.0491,511,22104.7,931.174,41164.8,4,4,False,0.0,6.21523,0.0776742,0.0,0.49663,0.0,-0.000121399,0.0,0.0,0.0
521,22405,4,0.0,6.20549,4,1231.48,0.0776742,0.0,0.49663,0.0,-8.10739e-05,-0.0,-0.0776742,-0.49663,0.0805731,0.263141,0.668993,4.0491,521,22405,1231.48,41164.8,4,4,False,0.0,6.20549,0.0776742,0.0,0.49663,0.0,-0.000238264,0.0,0.0,0.0
531,22705.5,4,0.0,6.199101,4,1531.93,0.0776742,0.0,0.49663,0.0,0.0,4.94066e-324,-0.0776742,-0.49663,0.0805731,0.263141,0.668993,4.0491,531,22705.5,1531.93,41164.8,4,4,False,0.0,6.199101,0.0776742,0.0,0.49663,0.0,-0.000302159,0.0,0.0,0.0
541,23033.6,4,-0.1974304,5.91821,5,60.0015,0.0776742,0.00328163,0.49663,0.019545,-0.00462899,-0.0118107,-0.0743926,-0.477085,0.0838547,0.282686,0.672274,4.06865,541,23033.6,60.0015,41164.8,5,4,False,-0.1974304,5.91821,0.0776742,0.00328163,0.49663,0.019545,-0.000907241,0.0,0.0,0.0
551,23634,4,-0.196727,5.682353,5,660.422,0.0776742,0.0361687,0.49663,0.209687,-0.000273745,-0.200307,-0.0415055,-0.286943,0.116742,0.472828,0.705162,4.25879,551,23634,660.422,41164.8,5,4,False,-0.196727,5.682353,0.0776742,0.0361687,0.49663,0.209687,-0.000241954,0.0,0.0,0.0
561,24234.3,4,-0.198134,5.53536,5,1260.7,0.0776742,0.0690337,0.49663,0.393874,-0.000202672,-0.270444,-0.00864052,-0.102757,0.149607,0.657015,0.738027,4.44298,561,24234.3,1260.7,41164.8,5,4,False,-0.198134,5.53536,0.0776742,0.0690337,0.49663,0.393874,-0.000182058,0.0,0.0,0.0
571,24610.7,4,0.0,5.799215,6,180.129,0.0776742,0.0797904,0.49663,0.453222,0.000192537,0.0,0.0021162,-0.0434081,0.160364,0.716364,0.748783,4.50232,571,24610.7,180.129,41164.9,6,4,False,0.0,5.799215,0.0776742,0.0797904,0.49663,0.453222,0.000182054,0.0,0.0,0.0
581,24911.1,4,0.0,5.83239,6,480.465,0.0776742,0.0797904,0.49663,0.453222,0.000101226,0.0,0.0021162,-0.0434081,0.160364,0.716364,0.748783,4.50232,581,24911.1,480.465,41164.9,6,4,False,0.0,5.83239,0.0776742,0.0797904,0.49663,0.453222,0.000303091,0.0,0.0,0.0
591,25211.4,4,0.0,5.845168,6,780.784,0.0776742,0.0797904,0.49663,0.453222,4.05333e-05,0.0,0.0021162,-0.0434081,0.160364,0.716364,0.748783,4.50232,591,25211.4,780.784,41164.9,6,4,False,0.0,5.845168,0.0776742,0.0797904,0.49663,0.453222,-0.000121508,0.0,0.0,0.0
601,25511.6,4,0.0,5.85491,6,1080.99,0.0776742,0.0797904,0.49663,0.453222,1.01431e-05,0.0,0.0021162,-0.0434081,0.160364,0.716364,0.748783,4.50232,601,25511.6,1080.99,41164.9,6,4,False,0.0,5.85491,0.0776742,0.0797904,0.49663,0.453222,-0.000242716,0.0,0.0,0.0
611,25811.9,4,0.0,5.86312,6,1381.33,0.0776742,0.0797904,0.49663,0.453222,1.01359e-05,0.0,0.0021162,-0.0434081,0.160364,0.716364,0.748783,4.50232,611,25811.9,1381.33,41164.9,6,4,False,0.0,5.86312,0.0776742,0.0797904,0.49663,0.453222,-0.000121512,0.0,0.0,0.0
621,26112.1,4,0.0,5.86982,6,1681.55,0.0776742,0.0797904,0.49663,0.453222,3.04188e-05,0.0,0.0021162,-0.0434081,0.160364,0.716364,0.748783,4.50232,621,26112.1,1681.55,41164.9,6,4,False,0.0,5.86982,0.0776742,0.0797904,0.49663,0.453222,6.04093e-05,0.0,0.0,0.0
631,26471.9,5,0.203439,6.26666,3,240.147,0.0135669,0.0,0.0841915,0.0,0.000385272,0.146635,-0.0135669,-0.0841915,0.146797,0.632172,0.76235,4.58652,631,26471.9,240.147,41164.9,3,5,False,0.203439,6.26666,0.0135669,0.0,0.0841915,0.0,0.000405799,0.0,0.0,0.0
641,27072.3,5,0.203087,6.449562,3,840.489,0.0474813,0.0,0.299932,0.0,0.00029901,0.188707,-0.0474813,-0.299932,0.112882,0.416431,0.796265,4.80226,641,27072.3,840.489,41164.9,3,5,False,0.203087,6.449562,0.0474813,0.0,0.299932,0.0,0.0003584241,0.0,0.0,0.0
651,27616.7,5,0.0,6.335135,4,30.0212,0.0765494,0.0,0.489576,0.0,-0.00882916,-0.0,-0.0765494,-0.489576,0.0838141,0.226788,0.825333,4.9919,651,27616.7,30.0212,41164.9,4,5,False,0.0,6.335135,0.0765494,0.0,0.489576,0.0,-0.00127298,0.0,0.0,0.0
661,27917.2,5,0.0,6.24353,4,330.461,0.0765494,0.0,0.489576,0.0,-0.000121437,-0.0,-0.0765494,-0.489576,0.0838141,0.226788,0.825333,4.9919,661,27917.2,330.461,41164.9,4,5,False,0.0,6.24353,0.0765494,0.0,0.489576,0.0,-0.00012131,0.0,0.0,0.0
671,28217.5,5,0.0,6.222534,4,630.843,0.0765494,0.0,0.489576,0.0,-4.05612e-05,-0.0,-0.0765494,-0.489576,0.0838141,0.226788,0.825333,4.9919,671,28217.5,630.843,41164.9,4,5,False,0.0,6.222534,0.0765494,0.0,0.489576,0.0,0.0,0.0,0.0,0.0
681,28518,5,0.0,6.209752,4,931.257,0.0765494,0.0,0.489576,0.0,-6.08556e-05,-0.0,-0.0765494,-0.489576,0.0838141,0.226788,0.825333,4.9919,681,28518,931.257,41164.9,4,5,False,0.0,6.209752,0.0765494,0.0,0.489576,0.0,-0.000242289,0.0,0.0,0.0
691,28818.2,5,0.0,6.20154,4,1231.51,0.0765494,0.0,0.489576,0.0,-4.05412e-05,-0.0,-0.0765494,-0.489576,0.0838141,0.226788,0.825333,4.9919,691,28818.2,1231.51,41164.9,4,5,False,0.0,6.20154,0.0765494,0.0,0.489576,0.0,-0.000119446,0.0,0.0,0.0
701,29118.6,5,0.0,6.19514,4,1531.9,0.0765494,0.0,0.489576,0.0,-1.01272e-05,-0.0,-0.0765494,-0.489576,0.0838141,0.226788,0.825333,4.9919,701,29118.6,1531.9,41164.9,4,5,False,0.0,6.19514,0.0765494,0.0,0.489576,0.0,-0.000182622,0.0,0.0,0.0
711,29446.8,5,-0.197079,5.91182,5,60.0646,0.0765494,0.0032849,0.489576,0.0195438,-0.00463597,-0.0117967,-0.0732645,-0.470032,0.087099,0.246332,0.828618,5.01144,711,29446.8,60.0646,41164.9,5,5,False,-0.197079,5.91182,0.0765494,0.0032849,0.489576,0.0195438,-0.000775594,0.0,0.0,0.0
721,30046.9,5,-0.1974304,5.673832,5,660.208,0.0765494,0.0361381,0.489576,0.209243,-0.000283858,-0.192421,-0.0404113,-0.280333,0.119952,0.436031,0.861471,5.20114,721,30046.9,660.208,41164.9,5,5,False,-0.1974304,5.673832,0.0765494,0.0361381,0.489576,0.209243,-0.0002996238,0.0,0.0,0.0
731,30647.3,5,-0.196727,5.528363,5,1260.62,0.0765494,0.0690238,0.489576,0.393289,-0.000192745,-0.283629,-0.00752565,-0.0962871,0.152838,0.620076,0.894357,5.38519,731,30647.3,1260.62,41164.9,5,5,False,-0.196727,5.528363,0.0765494,0.0690238,0.489576,0.393289,-0.00024346,0.0,0.0,0.0
741,31009.4,5,0.0,5.80621,6,210.208,0.0765494,0.0773556,0.489576,0.439231,0.000172363,0.0,0.000806157,-0.050345,0.16117,0.666019,0.902688,5.43113,741,31009.4,210.208,41164.9,6,5,False,0.0,5.80621,0.0765494,0.0773556,0.489576,0.439231,0.000182057,0.0,0.0,0.0
751,31309.7,5,0.0,5.833299,6,510.497,0.0765494,0.0773556,0.489576,0.439231,0.0,4.94066e-324,0.000806157,-0.050345,0.16117,0.666019,0.902688,5.43113,751,31309.7,510.497,41164.9,6,5,False,0.0,5.833299,0.0765494,0.0773556,0.489576,0.439231,-0.000365247,0.0,0.0,0.0
761,31610.2,5,0.0,5.84882,6,810.91,0.0765494,0.0773556,0.489576,0.439231,8.09792e-05,0.0,0.000806157,-0.050345,0.16117,0.666019,0.902688,5.43113,761,31610.2,810.91,41164.9,6,5,False,0.0,5.84882,0.0765494,0.0773556,0.489576,0.439231,-6.065235e-05,0.0,0.0,0.0
771,31910.6,5,0.0,5.85673,6,1111.32,0.0765494,0.0773556,0.489576,0.439231,-5.06267e-05,-0.0,0.000806157,-0.050345,0.16117,0.666019,0.902688,5.43113,771,31910.6,1111.32,41164.9,6,5,False,0.0,5.85673,0.0765494,0.0773556,0.489576,0.439231,-0.00042344,0.0,0.0,0.0
781,32210.8,5,0.0,5.86586,6,1411.6,0.0765494,0.0773556,0.489576,0.439231,8.10608e-05,0.0,0.000806157,-0.050345,0.16117,0.666019,0.902688,5.43113,781,32210.8,1411.6,41164.9,6,5,False,0.0,5.86586,0.0765494,0.0773556,0.489576,0.439231,0.000424256,0.0,0.0,0.0
791,32511.1,5,0.0,5.87164,6,1711.83,0.0765494,0.0773556,0.489576,0.439231,2.02583e-05,0.0,0.000806157,-0.050345,0.16117,0.666019,0.902688,5.43113,791,32511.1,1711.83,41164.9,6,5,False,0.0,5.87164,0.0765494,0.0773556,0.489576,0.439231,6.06518e-05,0.0,0.0,0.0
801,32900.5,6,0.202735,6.29162,3,300.179,0.0169531,0.0,0.105484,0.0,0.000375227,0.150373,-0.0169531,-0.105484,0.144217,0.560534,0.919641,5.53661,801,32900.5,300.179,41164.9,3,6,False,0.202735,6.29162,0.0169531,0.0,0.105484,0.0,0.000418256,0.0,0.0,0.0
811,33500.9,6,0.203439,6.47391,3,900.506,0.0508717,0.0,0.322056,0.0,0.00029925,0.18876,-0.0508717,-0.322056,0.110298,0.343963,0.95356,5.75319,811,33500.9,900.506,41165,3,6,False,0.203439,6.47391,0.0508717,0.0,0.322056,0.0,0.000297817,0.0,0.0,0.0
821,34024.5,6,0.0,6.33422,4,30.0007,0.0766928,0.0,0.490322,0.0,-0.00886521,-0.0,-0.0766928,-0.490322,0.0844768,0.175697,0.979381,5.92145,821,34024.5,30.0007,41165,4,6,False,0.0,6.33422,0.0766928,0.0,0.490322,0.0,-0.00125458,0.0,0.0,0.0
831,34324.8,6,0.0,6.24688,4,330.242,0.0766928,0.0,0.490322,0.0,-7.09448e-05,-0.0,-0.0766928,-0.490322,0.0844768,0.175697,0.979381,5.92145,831,34324.8,330.242,41165,4,6,False,0.0,6.24688,0.0766928,0.0,0.490322,0.0,0.0,0.0,0.0,0.0
841,34625.1,6,0.0,6.224056,4,630.578,0.0766928,0.0,0.490322,0.0,-0.00010122,-0.0,-0.0766928,-0.490322,0.0844768,0.175697,0.979381,5.92145,841,34625.1,630.578,41165,4,6,False,0.0,6.224056,0.0766928,0.0,0.490322,0.0,-0.000182125,0.0,0.0,0.0
851,34925.4,6,0.0,6.21188,4,930.839,0.0766928,0.0,0.490322,0.0,-3.0384e-05,-0.0,-0.0766928,-0.490322,0.0844768,0.175697,0.979381,5.92145,851,34925.4,930.839,41165,4,6,False,0.0,6.21188,0.0766928,0.0,0.490322,0.0,-6.08432e-05,0.0,0.0,0.0
861,35225.6,6,0.0,6.2058,4,1231.09,0.0766928,0.0,0.490322,0.0,-1.01378e-05,-0.0,-0.0766928,-0.490322,0.0844768,0.175697,0.979381,5.92145,861,35225.6,1231.09,41165,4,6,False,0.0,6.2058,0.0766928,0.0,0.490322,0.0,0.0005448577,0.0,0.0,0.0
871,35526,6,0.0,6.199101,4,1531.47,0.0766928,0.0,0.490322,0.0,4.05788e-05,0.0,-0.0766928,-0.490322,0.0844768,0.175697,0.979381,5.92145,871,35526,1531.47,41165,4,6,False,0.0,6.199101,0.0766928,0.0,0.490322,0.0,0.000298703,0.0,0.0,0.0
881,35854.6,6,-0.197079,5.910294,5,60.0327,0.0766928,0.00328712,0.490322,0.0195542,-0.0046941,-0.0116644,-0.0734057,-0.470767,0.0877639,0.195251,0.982668,5.94101,881,35854.6,60.0327,41165,5,6,False,-0.197079,5.910294,0.0766928,0.00328712,0.490322,0.0195542,-0.0007912418,0.0,0.0,0.0
891,36454.9,6,-0.197079,5.67018,5,660.344,0.0766928,0.0361467,0.490322,0.209192,-0.000293947,-0.185769,-0.0405461,-0.28113,0.120624,0.384889,1.01553,6.13064,891,36454.9,660.344,41165,5,6,False,-0.197079,5.67018,0.0766928,0.0361467,0.490322,0.209192,-0.000359535,0.0,0.0,0.0
901,37055.3,6,-0.196727,5.5238,5,1260.78,0.0766928,0.0690259,0.490322,0.393068,-0.00019781,-0.277084,-0.00766696,-0.0972532,0.153503,0.568765,1.04841,6.31452,901,37055.3,1260.78,41165,5,6,False,-0.196727,5.5238,0.0766928,0.0690259,0.490322,0.393068,-0.000182061,0.0,0.0,0.0
911,37390.9,6,0.0,5.808649,6,210.161,0.0766928,0.0758911,0.490322,0.430908,0.000172449,0.0,-0.00080178,-0.0594134,0.160368,0.606605,1.05527,6.35236,911,37390.9,210.161,41165,6,6,False,0.0,5.808649,0.0766928,0.0758911,0.490322,0.430908,0.0001826281,0.0,0.0,0.0
921,37691.3,6,0.0,5.836343,6,510.528,0.0766928,0.0758911,0.490322,0.430908,2.02889e-05,0.0,-0.00080178,-0.0594134,0.160368,0.606605,1.05527,6.35236,921,37691.3,510.528,41165,6,6,False,0.0,5.836343,0.0766928,0.0758911,0.490322,0.430908,-6.06531e-05,0.0,0.0,0.0
931,37991.6,6,0.0,5.850646,6,810.801,0.0766928,0.0758911,0.490322,0.430908,2.02719e-05,0.0,-0.00080178,-0.0594134,0.160368,0.606605,1.05527,6.35236,931,37991.6,810.801,41165,6,6,False,0.0,5.850646,0.0766928,0.0758911,0.490322,0.430908,0.0,0.0,0.0,0.0
941,38291.8,6,0.0,5.86099,6,1111.08,0.0766928,0.0758911,0.490322,0.430908,5.06751e-05,0.0,-0.00080178,-0.0594134,0.160368,0.606605,1.05527,6.35236,941,38291.8,1111.08,41165,6,6,False,0.0,5.86099,0.0766928,0.0758911,0.490322,0.430908,-5.99384e-05,0.0,0.0,0.0
951,38592.3,6,0.0,5.86678,6,1411.51,0.0766928,0.0758911,0.490322,0.430908,0.0,4.94066e-324,-0.00080178,-0.0594134,0.160368,0.606605,1.05527,6.35236,951,38592.3,1411.51,41165,6,6,False,0.0,5.86678,0.0766928,0.0758911,0.490322,0.430908,-6.04627e-05,0.0,0.0,0.0
961,38892.6,6,0.0,5.873166,6,1711.81,0.0766928,0.0758911,0.490322,0.430908,1.01278e-05,0.0,-0.00080178,-0.0594134,0.160368,0.606605,1.05527,6.35236,961,38892.6,1711.81,41165,6,6,False,0.0,5.873166,0.0766928,0.0758911,0.490322,0.430908,6.041216e-05,0.0,0.0,0.0
971,39282.1,7,0.203087,6.295268,3,300.257,0.0169514,0.0,0.105531,0.0,0.000370065,0.15236,-0.0169514,-0.105531,0.143416,0.501075,1.07222,6.45789,971,39282.1,300.257,41165,3,7,False,0.203087,6.295268,0.0169514,0.0,0.105531,0.0,0.00030431,0.0,0.0,0.0
981,39882.5,7,0.203439,6.4806,3,900.6,0.0508525,0.0,0.322199,0.0,0.000278813,0.202766,-0.0508525,-0.322199,0.109515,0.284406,1.10612,6.67456,981,39882.5,900.6,41165,3,7,False,0.203439,6.4806,0.0508525,0.0,0.322199,0.0,0.00023899,0.0,0.0,0.0
991,40373.3,7,0.0,6.28705,4,90.0959,0.0734844,0.0,0.470213,0.0,-0.000547201,-0.0,-0.0734844,-0.470213,0.0868835,0.136392,1.12876,6.82257,991,40373.3,90.0959,41165,4,7,False,0.0,6.28705,0.0734844,0.0,0.470213,0.0,-0.000418161,0.0,0.0,0.0
1001,40673.7,7,0.0,6.230142,4,390.494,0.0734844,0.0,0.470213,0.0,-9.12031e-05,-0.0,-0.0734844,-0.470213,0.0868835,0.136392,1.12876,6.82257,1001,40673.7,390.494,41165,4,7,False,0.0,6.230142,0.0734844,0.0,0.470213,0.0,-0.000121027,0.0,0.0,0.0
1011,40974,7,0.0,6.211274,4,690.782,0.0734844,0.0,0.470213,0.0,-0.000111349,-0.0,-0.0734844,-0.470213,0.0868835,0.136392,1.12876,6.82257,1011,40974,690.782,41165,4,7,False,0.0,6.211274,0.0734844,0.0,0.470213,0.0,-0.00024263,0.0,0.0,0.0
1021,41274.4,7,0.0,6.20154,4,991.211,0.0734844,0.0,0.470213,0.0,0.0,4.94066e-324,-0.0734844,-0.470213,0.0868835,0.136392,1.12876,6.82257,1021,41274.4,991.211,41165,4,7,False,0.0,6.20154,0.0734844,0.0,0.470213,0.0,0.000121402,0.0,0.0,0.0
1031,41574.7,7,0.0,6.191797,4,1291.5,0.0734844,0.0,0.470213,0.0,-4.05657e-05,-0.0,-0.0734844,-0.470213,0.0868835,0.136392,1.12876,6.82257,1031,41574.7,1291.5,41165.1,4,7,False,0.0,6.191797,0.0734844,0.0,0.470213,0.0,-0.000182075,0.0,0.0,0.0
1041,41875.2,7,0.0,6.18571,4,1591.94,0.0734844,0.0,0.470213,0.0,-1.0122e-05,-0.0,-0.0734844,-0.470213,0.0868835,0.136392,1.12876,6.82257,1041,41875.2,1591.94,41165.1,4,7,False,0.0,6.18571,0.0734844,0.0,0.470213,0.0,-5.9904e-05,0.0,0.0,0.0
1051,42263.3,7,-0.197782,5.82508,5,180.098,0.0734844,0.00986506,0.470213,0.0580584,-0.000537636,-0.101858,-0.0636193,-0.412154,0.0967486,0.194451,1.13862,6.88063,1051,42263.3,180.098,41165.1,5,7,False,-0.197782,5.82508,0.0734844,0.00986506,0.470213,0.0580584,-0.000529565,0.0,0.0,0.0
1061,42863.7,7,-0.197079,5.625748,5,780.472,0.0734844,0.042758,0.470213,0.246094,-0.00026347,-0.207964,-0.0307264,-0.224119,0.129641,0.382486,1.17151,7.06867,1061,42863.7,780.472,41165.1,5,7,False,-0.197079,5.625748,0.0734844,0.042758,0.470213,0.246094,-0.000119816,0.0,0.0,0.0
1071,43421.2,7,-0.197079,5.499757,5,1337.94,0.0734844,0.0733019,0.470213,0.415878,-0.000212634,-0.25773,-0.000182522,-0.0543344,0.160185,0.552271,1.20206,7.23845,1071,43421.2,1337.94,41165.1,5,7,False,-0.197079,5.499757,0.0734844,0.0733019,0.470213,0.415878,-0.000298721,0.0,0.0,0.0
1081,43721.6,7,0.0,5.82113,6,300.378,0.0734844,0.0733019,0.470213,0.415878,0.00011142,0.0,-0.000182522,-0.0543344,0.160185,0.552271,1.20206,7.23845,1081,43721.6,300.378,41165.1,6,7,False,0.0,5.82113,0.0734844,0.0733019,0.470213,0.415878,6.061256e-05,0.0,0.0,0.0
1091,44021.8,7,0.0,5.84182,6,600.62,0.0734844,0.0733019,0.470213,0.415878,4.05122e-05,0.0,-0.000182522,-0.0543344,0.160185,0.552271,1.20206,7.23845,1091,44021.8,600.62,41165.1,6,7,False,0.0,5.84182,0.0734844,0.0733019,0.470213,0.415878,0.000119538,0.0,0.0,0.0
1101,44322.1,7,0.0,5.854298,6,900.881,0.0734844,0.0733019,0.470213,0.415878,2.02858e-05,0.0,-0.000182522,-0.0543344,0.160185,0.552271,1.20206,7.23845,1101,44322.1,900.881,41165.1,6,7,False,0.0,5.854298,0.0734844,0.0733019,0.470213,0.415878,0.000182251,0.0,0.0,0.0
1111,44622.4,7,0.0,5.86373,6,1201.26,0.0734844,0.0733019,0.470213,0.415878,4.04924e-05,0.0,-0.000182522,-0.0543344,0.160185,0.552271,1.20206,7.23845,1111,44622.4,1201.26,41165.1,6,7,False,0.0,5.86373,0.0734844,0.0733019,0.470213,0.415878,0.000182057,0.0,0.0,0.0
1121,44922.7,7,0.0,5.86951,6,1501.56,0.0734844,0.0733019,0.470213,0.415878,3.04232e-05,0.0,-0.000182522,-0.0543344,0.160185,0.552271,1.20206,7.23845,1121,44922.7,1501.56,41165.1,6,7,False,0.0,5.86951,0.0734844,0.0733019,0.470213,0.415878,6.074699e-05,0.0,0.0,0.0
1131,45221.2,7,0.0,5.87469,6,1800.03,0.0734844,0.0733019,0.470213,0.415878,4.32247e-05,0.0,-0.000182522,-0.0543344,0.160185,0.552271,1.20206,7.23845,1131,45221.2,1800.03,41165.1,6,7,False,0.0,5.87469,0.0734844,0.0733019,0.470213,0.415878,-0.000182058,0.0,0.0,0.0
1141,45702.4,8,0.203439,6.35735,3,480.121,0.0271002,0.0,0.169754,0.0,0.000334755,0.169065,-0.0271002,-0.169754,0.133085,0.382516,1.22916,7.40821,1141,45702.4,480.121,41165.1,3,8,False,0.203439,6.35735,0.0271002,0.0,0.169754,0.0,0.00029881,0.0,0.0,0.0
1151,46302.8,8,0.202384,6.5366,3,1080.51,0.0609888,0.0,0.388273,0.0,0.000288797,0.195219,-0.0609888,-0.388273,0.0991966,0.163998,1.26305,7.62672,1151,46302.8,1080.51,41165.105,3,8,False,0.202384,6.5366,0.0609888,0.0,0.388273,0.0,0.000242401,0.0,0.0,0.0
1161,46692,8,0.0,6.25723,4,180.129,0.0727968,0.0,0.465831,0.0,-0.000253461,-0.0,-0.0727968,-0.465831,0.0873885,0.0864401,1.27486,7.70428,1161,46692,180.129,41165.1,4,8,False,0.0,6.25723,0.0727968,0.0,0.465831,0.0,-0.000238981,0.0,0.0,0.0
1171,46992.4,8,0.0,6.222534,4,480.449,0.0727968,0.0,0.465831,0.0,-6.07385e-05,-0.0,-0.0727968,-0.465831,0.0873885,0.0864401,1.27486,7.70428,1171,46992.4,480.449,41165.1,4,8,False,0.0,6.222534,0.0727968,0.0,0.465831,0.0,0.000239728,0.0,0.0,0.0
1181,47292.6,8,0.0,6.204579,4,780.738,0.0727968,0.0,0.465831,0.0,-0.000131794,-0.0,-0.0727968,-0.465831,0.0873885,0.0864401,1.27486,7.70428,1181,47292.6,780.738,41165.1,4,8,False,0.0,6.204579,0.0727968,0.0,0.465831,0.0,-0.000304309,0.0,0.0,0.0
1191,47592.9,8,0.0,6.19514,4,1080.96,0.0727968,0.0,0.465831,0.0,-3.0411e-05,-0.0,-0.0727968,-0.465831,0.0873885,0.0864401,1.27486,7.70428,1191,47592.9,1080.96,41165.1,4,8,False,0.0,6.19514,0.0727968,0.0,0.465831,0.0,-6.06548e-05,0.0,0.0,0.0
1201,47893.3,8,0.0,6.188145,4,1381.42,0.0727968,0.0,0.465831,0.0,-3.03694e-05,-0.0,-0.0727968,-0.465831,0.0873885,0.0864401,1.27486,7.70428,1201,47893.3,1381.42,41165.1,4,8,False,0.0,6.188145,0.0727968,0.0,0.465831,0.0,-0.0001190811,0.0,0.0,0.0
1211,48193.7,8,0.0,6.182363,4,1681.76,0.0727968,0.0,0.465831,0.0,-2.02407e-05,-0.0,-0.0727968,-0.465831,0.0873885,0.0864401,1.27486,7.70428,1211,48193.7,1681.76,41165.1,4,8,False,0.0,6.182363,0.0727968,0.0,0.465831,0.0,0.0,0.0,0.0,0.0
1221,48672.2,8,-0.197782,5.748392,5,360.196,0.0727968,0.0197627,0.465831,0.115261,-0.000364807,-0.150589,-0.0530342,-0.350569,0.107151,0.201702,1.29462,7.81954,1221,48672.2,360.196,41165.1,5,8,False,-0.197782,5.748392,0.0727968,0.0197627,0.465831,0.115261,-0.0004246788,0.0,0.0,0.0
1231,49272.5,8,-0.1974304,5.57523,5,960.554,0.0727968,0.0526705,0.465831,0.301407,-0.000238141,-0.230405,-0.0201264,-0.164424,0.140059,0.387847,1.32753,8.00569,1231,49272.5,960.554,41165.1,5,8,False,-0.1974304,5.57523,0.0727968,0.0526705,0.465831,0.301407,-0.00023825,0.0,0.0,0.0
1241,49744.9,8,0.0,5.79191,6,120.061,0.0727968,0.0719761,0.465831,0.408283,0.000304153,0.0,-0.000820733,-0.0575476,0.159365,0.494723,1.34683,8.11257,1241,49744.9,120.061,41165.1,6,8,False,0.0,5.79191,0.0727968,0.0719761,0.465831,0.408283,0.000286404,0.0,0.0,0.0
1251,50045.2,8,0.0,5.83239,6,420.381,0.0727968,0.0719761,0.465831,0.408283,6.08503e-05,0.0,-0.000820733,-0.0575476,0.159365,0.494723,1.34683,8.11257,1251,50045.2,420.381,41165.1,6,8,False,0.0,5.83239,0.0727968,0.0719761,0.465831,0.408283,6.08434e-05,0.0,0.0,0.0
1261,50345.5,8,0.0,5.84852,6,720.622,0.0727968,0.0719761,0.465831,0.408283,3.03686e-05,0.0,-0.000820733,-0.0575476,0.159365,0.494723,1.34683,8.11257,1261,50345.5,720.622,41165.2,6,8,False,0.0,5.84852,0.0727968,0.0719761,0.465831,0.408283,0.0,0.0,0.0,0.0
1271,50645.9,8,0.0,5.85856,6,1020.99,0.0727968,0.0719761,0.465831,0.408283,3.04234e-05,0.0,-0.000820733,-0.0575476,0.159365,0.494723,1.34683,8.11257,1271,50645.9,1020.99,41165.2,6,8,False,0.0,5.85856,0.0727968,0.0719761,0.465831,0.408283,5.99078e-05,0.0,0.0,0.0
1281,50946.1,8,0.0,5.86617,6,1321.22,0.0727968,0.0719761,0.465831,0.408283,2.02862e-05,0.0,-0.000820733,-0.0575476,0.159365,0.494723,1.34683,8.11257,1281,50946.1,1321.22,41165.2,6,8,False,0.0,5.86617,0.0727968,0.0719761,0.465831,0.408283,0.0,0.0,0.0,0.0
1291,51246.4,8,0.0,5.87256,6,1621.49,0.0727968,0.0719761,0.465831,0.408283,1.01397e-05,0.0,-0.000820733,-0.0575476,0.159365,0.494723,1.34683,8.11257,1291,51246.4,1621.49,41165.2,6,8,False,0.0,5.87256,0.0727968,0.0719761,0.465831,0.408283,0.0,0.0,0.0,0.0
1301,51546.1,9,0.204142,6.221621,3,120.081,0.00677596,0.0,0.0418397,0.0,0.00064347,0.0876977,-0.00677596,-0.0418397,0.152589,0.452883,1.35361,8.1544,1301,51546.1,120.081,41165.2,3,9,False,0.204142,6.221621,0.00677596,0.0,0.0418397,0.0,0.0005427,0.0,0.0,0.0
1311,52146.5,9,0.203087,6.43313,3,720.501,0.0406605,0.0,0.256538,0.0,0.000299248,0.18886,-0.0406605,-0.256538,0.118704,0.238185,1.38749,8.3691,1311,52146.5,720.501,41165.2,3,9,False,0.203087,6.43313,0.0406605,0.0,0.256538,0.0,0.0002381535,0.0,0.0,0.0
1321,52705,9,0.203087,6.6002,3,1278.97,0.0721713,0.0,0.461866,0.0,0.000336112,0.167957,-0.0721713,-0.461866,0.0871933,0.0328567,1.419,8.57443,1321,52705,1278.97,41165.2,3,9,False,0.203087,6.6002,0.0721713,0.0,0.461866,0.0,0.0004045862,0.0,0.0,0.0
1331,53005.2,9,0.0,6.236533,4,300.226,0.0721713,0.0,0.461866,0.0,-0.000131743,-0.0,-0.0721713,-0.461866,0.0871933,0.0328567,1.419,8.57443,1331,53005.2,300.226,41165.2,4,9,False,0.0,6.236533,0.0721713,0.0,0.461866,0.0,-0.0001814911,0.0,0.0,0.0
1341,53305.5,9,0.0,6.212187,4,600.483,0.0721713,0.0,0.461866,0.0,-8.10638e-05,-0.0,-0.0721713,-0.461866,0.0871933,0.0328567,1.419,8.57443,1341,53305.5,600.483,41165.2,4,9,False,0.0,6.212187,0.0721713,0.0,0.461866,0.0,-0.000234667,0.0,0.0,0.0
1351,53605.8,9,0.0,6.20001,4,900.834,0.0721713,0.0,0.461866,0.0,-2.02573e-05,-0.0,-0.0721713,-0.461866,0.0871933,0.0328567,1.419,8.57443,1351,53605.8,900.834,41165.2,4,9,False,0.0,6.20001,0.0721713,0.0,0.461866,0.0,-0.000179296,0.0,0.0,0.0
1361,53906.1,9,0.0,6.19119,4,1201.08,0.0721713,0.0,0.461866,0.0,-1.01431e-05,-0.0,-0.0721713,-0.461866,0.0871933,0.0328567,1.419,8.57443,1361,53906.1,1201.08,41165.2,4,9,False,0.0,6.19119,0.0721713,0.0,0.461866,0.0,-0.000110939,0.0,0.0,0.0
1371,54206.4,9,0.0,6.18662,4,1501.4,0.0721713,0.0,0.461866,0.0,0.0,4.94066e-324,-0.0721713,-0.461866,0.0871933,0.0328567,1.419,8.57443,1371,54206.4,1501.4,41165.2,4,9,False,0.0,6.18662,0.0721713,0.0,0.461866,0.0,0.0004247439,0.0,0.0,0.0
1381,54505.1,9,0.0,6.18023,4,1800.07,0.0721713,0.0,0.461866,0.0,-1.06968e-05,-0.0,-0.0721713,-0.461866,0.0871933,0.0328567,1.419,8.57443,1381,54505.1,1800.07,41165.2,4,9,False,0.0,6.18023,0.0721713,0.0,0.461866,0.0,0.0003651536,0.0,0.0,0.0
1391,55105.3,9,-0.1974304,5.66896,5,600.249,0.0721713,0.0328986,0.461866,0.190165,-0.000293947,-0.186684,-0.0392727,-0.271701,0.120092,0.223022,1.4519,8.7646,1391,55105.3,600.249,41165.2,5,9,False,-0.1974304,5.66896,0.0721713,0.0328986,0.461866,0.190165,-0.0001787105,0.0,0.0,0.0
1401,55705.6,9,-0.197079,5.518929,5,1200.54,0.0721713,0.0657978,0.461866,0.374034,-0.000202878,-0.270133,-0.00637347,-0.087832,0.152991,0.406891,1.4848,8.94847,1401,55705.6,1200.54,41165.2,5,9,False,-0.197079,5.518929,0.0721713,0.0657978,0.461866,0.374034,-0.000182052,0.0,0.0,0.0
1411,56042.3,9,0.0,5.81474,6,240.21,0.0721713,0.0710862,0.461866,0.40317,0.000131736,0.0,-0.00108512,-0.0586964,0.15828,0.436027,1.49009,8.9776,1411,56042.3,240.21,41165.2,6,9,False,0.0,5.81474,0.0721713,0.0710862,0.461866,0.40317,0.000119082,0.0,0.0,0.0
1421,56342.5,9,0.0,5.840299,6,540.419,0.0721713,0.0710862,0.461866,0.40317,5.06792e-05,0.0,-0.00108512,-0.0586964,0.15828,0.436027,1.49009,8.9776,1421,56342.5,540.419,41165.2,6,9,False,0.0,5.840299,0.0721713,0.0710862,0.461866,0.40317,-5.97743e-05,0.0,0.0,0.0
1431,56642.8,9,0.0,5.854298,6,840.755,0.0721713,0.0710862,0.461866,0.40317,7.09376e-05,0.0,-0.00108512,-0.0586964,0.15828,0.436027,1.49009,8.9776,1431,56642.8,840.755,41165.2,6,9,False,0.0,5.854298,0.0721713,0.0710862,0.461866,0.40317,0.000171525,0.0,0.0,0.0
1441,56943.2,9,0.0,5.86373,6,1141.11,0.0721713,0.0710862,0.461866,0.40317,8.10696e-05,0.0,-0.00108512,-0.0586964,0.15828,0.436027,1.49009,8.9776,1441,56943.2,1141.11,41165.2,6,9,False,0.0,5.86373,0.0721713,0.0710862,0.461866,0.40317,0.0003585096,0.0,0.0,0.0
1451,57243.6,9,0.0,5.86951,6,1441.55,0.0721713,0.0710862,0.461866,0.40317,-1.01239e-05,-0.0,-0.00108512,-0.0586964,0.15828,0.436027,1.49009,8.9776,1451,57243.6,1441.55,41165.2,6,9,False,0.0,5.86951,0.0721713,0.0710862,0.461866,0.40317,0.000121781,0.0,0.0,0.0
1461,57543.8,9,0.0,5.874079,6,1741.72,0.0721713,0.0710862,0.461866,0.40317,1.01316e-05,0.0,-0.00108512,-0.0586964,0.15828,0.436027,1.49009,8.9776,1461,57543.8,1741.72,41165.2,6,9,False,0.0,5.874079,0.0721713,0.0710862,0.461866,0.40317,0.0,0.0,0.0,0.0
1471,57963.5,10,0.202735,6.32053,3,360.254,0.0203058,0.0,0.126733,0.0,0.000354676,0.158829,-0.0203058,-0.126733,0.137974,0.309293,1.51039,9.10433,1471,57963.5,360.254,41165.2,3,10,False,0.202735,6.32053,0.0203058,0.0,0.126733,0.0,0.000424755,0.0,0.0,0.0
1481,58563.9,10,0.203439,6.50647,3,960.644,0.0542031,0.0,0.344214,0.0,0.000299248,0.188934,-0.0542031,-0.344214,0.104076,0.091813,1.54429,9.32182,1481,58563.9,960.644,41165.2,3,10,False,0.203439,6.50647,0.0542031,0.0,0.344214,0.0,0.000354176,0.0,0.0,0.0
1491,58992.8,10,0.0,6.27214,4,120.034,0.0716425,0.0,0.458486,0.0,-0.000385475,-0.0,-0.0716425,-0.458486,0.086637,-0.0224591,1.56173,9.43609,1491,58992.8,120.034,41165.3,4,10,False,0.0,6.27214,0.0716425,0.0,0.458486,0.0,-0.0003033731,0.0,0.0,0.0
1501,59293,10,0.0,6.224056,4,420.213,0.0716425,0.0,0.458486,0.0,-8.10212e-05,-0.0,-0.0716425,-0.458486,0.086637,-0.0224591,1.56173,9.43609,1501,59293,420.213,41165.3,4,10,False,0.0,6.224056,0.0716425,0.0,0.458486,0.0,0.0,0.0,0.0,0.0
1511,59593.3,10,0.0,6.2058,4,720.564,0.0716425,0.0,0.458486,0.0,-4.04747e-05,-0.0,-0.0716425,-0.458486,0.086637,-0.0224591,1.56173,9.43609,1511,59593.3,720.564,41165.3,4,10,False,0.0,6.2058,0.0716425,0.0,0.458486,0.0,-0.000121688,0.0,0.0,0.0
1521,59893.7,10,0.0,6.19667,4,1020.88,0.0716425,0.0,0.458486,0.0,-4.05578e-05,-0.0,-0.0716425,-0.458486,0.086637,-0.0224591,1.56173,9.43609,1521,59893.7,1020.88,41165.3,4,10,False,0.0,6.19667,0.0716425,0.0,0.458486,0.0,0.000347196,0.0,0.0,0.0
1531,60193.9,10,0.0,6.18754,4,1321.16,0.0716425,0.0,0.458486,0.0,0.0,4.94066e-324,-0.0716425,-0.458486,0.086637,-0.0224591,1.56173,9.43609,1531,60193.9,1321.16,41165.3,4,10,False,0.0,6.18754,0.0716425,0.0,0.458486,0.0,-0.000303354,0.0,0.0,0.0
1541,60494.2,10,0.0,6.181754,4,1621.4,0.0716425,0.0,0.458486,0.0,-1.01273e-05,-0.0,-0.0716425,-0.458486,0.086637,-0.0224591,1.56173,9.43609,1541,60494.2,1621.4,41165.3,4,10,False,0.0,6.181754,0.0716425,0.0,0.458486,0.0,0.0,0.0,0.0,0.0
1551,60912.9,10,-0.197079,5.790085,5,240.131,0.0716425,0.0131546,0.458486,0.0770751,-0.000461549,-0.118555,-0.0584879,-0.381411,0.0997916,0.054616,1.57489,9.51316,1551,60912.9,240.131,41165.3,5,10,False,-0.197079,5.790085,0.0716425,0.0131546,0.458486,0.0770751,-0.000416967,0.0,0.0,0.0
1561,61513.1,10,-0.197079,5.599272,5,840.286,0.0716425,0.0460442,0.458486,0.264129,-0.000268531,-0.204026,-0.0255983,-0.194357,0.132681,0.24167,1.60778,9.70022,1561,61513.1,840.286,41165.3,5,10,False,-0.197079,5.599272,0.0716425,0.0460442,0.458486,0.264129,-0.000358433,0.0,0.0,0.0
1571,62018.8,10,0.0,5.77122,6,60.0259,0.0716425,0.0704602,0.458486,0.399567,0.000618455,0.0,-0.00118232,-0.058919,0.157097,0.377108,1.63219,9.83565,1571,62018.8,60.0259,41165.3,6,10,False,0.0,5.77122,0.0716425,0.0704602,0.458486,0.399567,0.000581364,0.0,0.0,0.0
1581,62319.1,10,0.0,5.828126,6,360.33,0.0716425,0.0704602,0.458486,0.399567,8.10804e-05,0.0,-0.00118232,-0.058919,0.157097,0.377108,1.63219,9.83565,1581,62319.1,360.33,41165.3,6,10,False,0.0,5.828126,0.0716425,0.0704602,0.458486,0.399567,5.873879e-05,0.0,0.0,0.0
1591,62619.4,10,0.0,5.84639,6,660.65,0.0716425,0.0704602,0.458486,0.399567,4.0525e-05,0.0,-0.00118232,-0.058919,0.157097,0.377108,1.63219,9.83565,1591,62619.4,660.65,41165.3,6,10,False,0.0,5.84639,0.0716425,0.0704602,0.458486,0.399567,0.0,0.0,0.0,0.0
1601,62919.8,10,0.0,5.85825,6,961.099,0.0716425,0.0704602,0.458486,0.399567,1.01354e-05,0.0,-0.00118232,-0.058919,0.157097,0.377108,1.63219,9.83565,1601,62919.8,961.099,41165.3,6,10,False,0.0,5.85825,0.0716425,0.0704602,0.458486,0.399567,0.000117577,0.0,0.0,0.0
1611,63220.2,10,0.0,5.864645,6,1261.41,0.0716425,0.0704602,0.458486,0.399567,2.02795e-05,0.0,-0.00118232,-0.058919,0.157097,0.377108,1.63219,9.83565,1611,63220.2,1261.41,41165.3,6,10,False,0.0,5.864645,0.0716425,0.0704602,0.458486,0.399567,6.0843e-05,0.0,0.0,0.0
1621,63520.4,10,0.0,5.87134,6,1561.64,0.0716425,0.0704602,0.458486,0.399567,-2.02794e-05,-0.0,-0.00118232,-0.058919,0.157097,0.377108,1.63219,9.83565,1621,63520.4,1561.64,41165.3,6,10,False,0.0,5.87134,0.0716425,0.0704602,0.458486,0.399567,0.000121305,0.0,0.0,0.0
1631,63759.9,11,0.0,5.876514,2,1.01558,0.0,0.0,0.0,0.0,0.0,4.94066e-324,0.0,0.0,0.157097,0.377108,1.63219,9.83565,1631,63759.9,1.01558,41165.3,2,11,False,0.0,5.876514,0.0,0.0,0.0,0.0,0.0002995563,0.0,0.0,0.0
1641,64360.3,11,0.204142,6.399044,3,600.358,0.0338775,0.0,0.213038,0.0,0.000329599,0.171285,-0.0338775,-0.213038,0.12322,0.16407,1.66607,10.0487,1641,64360.3,600.358,41165.3,3,11,False,0.204142,6.399044,0.0338775,0.0,0.213038,0.0,0.000472181,0.0,0.0,0.0
1651,64960.6,11,0.202735,6.57647,3,1200.73,0.0677153,0.0,0.432556,0.0,0.000288803,0.194284,-0.0677153,-0.432556,0.0893818,-0.055448,1.69991,10.2682,1651,64960.6,1200.73,41165.3,3,11,False,0.202735,6.57647,0.0677153,0.0,0.432556,0.0,0.000242615,0.0,0.0,0.0
1661,65277.4,11,0.0,6.24627,4,240.225,0.0720207,0.0,0.460917,0.0,-0.000172452,-0.0,-0.0720207,-0.460917,0.0850765,-0.0838094,1.70421,10.2966,1661,65277.4,240.225,41165.3,4,11,False,0.0,6.24627,0.0720207,0.0,0.460917,0.0,-0.000182054,0.0,0.0,0.0
1671,65577.7,11,0.0,6.216752,4,540.513,0.0720207,0.0,0.460917,0.0,-5.06394e-05,-0.0,-0.0720207,-0.460917,0.0850765,-0.0838094,1.70421,10.2966,1671,65577.7,540.513,41165.3,4,11,False,0.0,6.216752,0.0720207,0.0,0.460917,0.0,-6.073717e-05,0.0,0.0,0.0
1681,65877.9,11,0.0,6.20367,4,840.755,0.0720207,0.0,0.460917,0.0,2.02373e-05,0.0,-0.0720207,-0.460917,0.0850765,-0.0838094,1.70421,10.2966,1681,65877.9,840.755,41165.3,4,11,False,0.0,6.20367,0.0720207,0.0,0.460917,0.0,6.06534e-05,0.0,0.0,0.0
1691,66178.2,11,0.0,6.193014,4,1141.07,0.0720207,0.0,0.460917,0.0,-6.0847e-05,-0.0,-0.0720207,-0.460917,0.0850765,-0.0838094,1.70421,10.2966,1691,66178.2,1141.07,41165.3,4,11,False,0.0,6.193014,0.0720207,0.0,0.460917,0.0,6.06531e-05,0.0,0.0,0.0
1701,66478.5,11,0.0,6.185102,4,1441.28,0.0720207,0.0,0.460917,0.0,-0.000111462,-0.0,-0.0720207,-0.460917,0.0850765,-0.0838094,1.70421,10.2966,1701,66478.5,1441.28,41165.3,4,11,False,0.0,6.185102,0.0720207,0.0,0.460917,0.0,-6.07764e-05,0.0,0.0,0.0
1711,66778.7,11,0.0,6.17993,4,1741.56,0.0720207,0.0,0.460917,0.0,-8.09861e-05,-0.0,-0.0720207,-0.460917,0.0850765,-0.0838094,1.70421,10.2966,1711,66778.7,1741.56,41165.3,4,11,False,0.0,6.17993,0.0720207,0.0,0.460917,0.0,0.000121399,0.0,0.0,0.0
1721,67317.4,11,-0.1974304,5.70426,5,480.152,0.0720207,0.0262603,0.460917,0.152402,-0.000339513,-0.159986,-0.0457604,-0.308515,0.111337,0.0685929,1.73047,10.449,1721,67317.4,480.152,41165.3,5,11,False,-0.1974304,5.70426,0.0720207,0.0262603,0.460917,0.152402,-0.000418181,0.0,0.0,0.0
1731,67917.7,11,-0.197079,5.542971,5,1080.5,0.0720207,0.0591452,0.460917,0.33718,-0.000228143,-0.23933,-0.0128755,-0.123737,0.144222,0.253371,1.76336,10.6338,1731,67917.7,1080.5,41165.4,5,11,False,-0.197079,5.542971,0.0720207,0.0591452,0.460917,0.33718,-0.000179812,0.0,0.0,0.0
1741,68309.7,11,0.0,5.80469,6,180.208,0.0720207,0.0707485,0.460917,0.401243,0.00019266,0.0,-0.00127214,-0.0596744,0.155825,0.317433,1.77496,10.6978,1741,68309.7,180.208,41165.4,6,11,False,0.0,5.80469,0.0720207,0.0707485,0.460917,0.401243,0.000182058,0.0,0.0,0.0
1751,68610,11,0.0,5.83756,6,480.527,0.0720207,0.0707485,0.460917,0.401243,9.125e-05,0.0,-0.00127214,-0.0596744,0.155825,0.317433,1.77496,10.6978,1751,68610,480.527,41165.4,6,11,False,0.0,5.83756,0.0720207,0.0707485,0.460917,0.401243,0.000240461,0.0,0.0,0.0
1761,68910.3,11,0.0,5.850646,6,780.863,0.0720207,0.0707485,0.460917,0.401243,4.05334e-05,0.0,-0.00127214,-0.0596744,0.155825,0.317433,1.77496,10.6978,1761,68910.3,780.863,41165.4,6,11,False,0.0,5.850646,0.0720207,0.0707485,0.460917,0.401243,0.000121035,0.0,0.0,0.0
1771,69210.7,11,0.0,5.859776,6,1081.2,0.0720207,0.0707485,0.460917,0.401243,0.0,4.94066e-324,-0.00127214,-0.0596744,0.155825,0.317433,1.77496,10.6978,1771,69210.7,1081.2,41165.4,6,11,False,0.0,5.859776,0.0720207,0.0707485,0.460917,0.401243,-0.000121306,0.0,0.0,0.0
1781,69510.9,11,0.0,5.86678,6,1381.38,0.0720207,0.0707485,0.460917,0.401243,2.02856e-05,0.0,-0.00127214,-0.0596744,0.155825,0.317433,1.77496,10.6978,1781,69510.9,1381.38,41165.4,6,11,False,0.0,5.86678,0.0720207,0.0707485,0.460917,0.401243,-0.000121687,0.0,0.0,0.0
1791,69811.2,11,0.0,5.87195,6,1681.68,0.0720207,0.0707485,0.460917,0.401243,0.0,4.94066e-324,-0.00127214,-0.0596744,0.155825,0.317433,1.77496,10.6978,1791,69811.2,1681.68,41165.4,6,11,False,0.0,5.87195,0.0720207,0.0707485,0.460917,0.401243,0.0,0.0,0.0,0.0
1801,70170.6,12,0.203087,6.273357,3,240.053,0.0135505,0.0,0.0841414,0.0,0.000420874,0.133951,-0.0135505,-0.0841414,0.142275,0.233292,1.78851,10.782,1801,70170.6,240.053,41165.4,3,12,False,0.203087,6.273357,0.0135505,0.0,0.0841414,0.0,0.000484973,0.0,0.0,0.0
1811,70770.9,12,0.18445,6.437998,3,840.364,0.0468179,0.0,0.295966,0.0,0.000273609,0.193782,-0.0468179,-0.295966,0.109007,0.0214671,1.82178,10.9938,1811,70770.9,840.364,41165.4,3,12,False,0.18445,6.437998,0.0468179,0.0,0.295966,0.0,-0.00194161,0.0,0.0,0.0
1821,71326.1,12,0.0,6.332092,4,30.0632,0.07418,0.0,0.474021,0.0,-0.00891738,-0.0,-0.07418,-0.474021,0.0816451,-0.156588,1.84914,11.1718,1821,71326.1,30.0632,41165.4,4,12,False,0.0,6.332092,0.07418,0.0,0.474021,0.0,-0.001274214,0.0,0.0,0.0
1831,71626.5,12,0.0,6.241402,4,330.414,0.07418,0.0,0.474021,0.0,-0.000101306,-0.0,-0.07418,-0.474021,0.0816451,-0.156588,1.84914,11.1718,1831,71626.5,330.414,41165.4,4,12,False,0.0,6.241402,0.07418,0.0,0.474021,0.0,0.0,0.0,0.0,0.0
1841,71926.8,12,0.0,6.21919,4,630.734,0.07418,0.0,0.474021,0.0,-0.000101401,-0.0,-0.07418,-0.474021,0.0816451,-0.156588,1.84914,11.1718,1841,71926.8,630.734,41165.4,4,12,False,0.0,6.21919,0.07418,0.0,0.474021,0.0,0.0,0.0,0.0,0.0
1851,72227,12,0.0,6.20914,4,930.929,0.07418,0.0,0.474021,0.0,-1.01253e-05,-0.0,-0.07418,-0.474021,0.0816451,-0.156588,1.84914,11.1718,1851,72227,930.929,41165.4,4,12,False,0.0,6.20914,0.07418,0.0,0.474021,0.0,0.0,0.0,0.0,0.0
1861,72527.3,12,0.0,6.1988,4,1231.22,0.07418,0.0,0.474021,0.0,-5.07192e-05,-0.0,-0.07418,-0.474021,0.0816451,-0.156588,1.84914,11.1718,1861,72527.3,1231.22,41165.4,4,12,False,0.0,6.1988,0.07418,0.0,0.474021,0.0,0.00022916,0.0,0.0,0.0
1871,72827.7,12,0.0,6.19119,4,1531.6,0.07418,0.0,0.474021,0.0,-2.02579e-05,-0.0,-0.07418,-0.474021,0.0816451,-0.156588,1.84914,11.1718,1871,72827.7,1531.6,41165.4,4,12,False,0.0,6.19119,0.07418,0.0,0.474021,0.0,-0.0002906778,0.0,0.0,0.0
1881,73156.1,12,-0.196727,5.902382,5,60.0171,0.07418,0.00328756,0.474021,0.0195313,-0.00476127,-0.0115045,-0.0708924,-0.45449,0.0849326,-0.137057,1.85243,11.1914,1881,73156.1,60.0171,41165.4,5,12,False,-0.196727,5.902382,0.07418,0.00328756,0.474021,0.0195313,-0.000904465,0.0,0.0,0.0
1891,73756.6,12,-0.197079,5.65679,5,660.453,0.07418,0.0361699,0.474021,0.208934,-0.000293872,-0.18634,-0.0380101,-0.265087,0.117815,0.0523464,1.88531,11.3808,1891,73756.6,660.453,41165.4,5,12,False,-0.197079,5.65679,0.07418,0.0361699,0.474021,0.208934,-0.000371542,0.0,0.0,0.0
1901,74356.9,12,-0.1974304,5.51163,5,1260.77,0.07418,0.0690293,0.474021,0.392283,-0.000207897,-0.262887,-0.00515072,-0.0817381,0.150674,0.235695,1.91817,11.5641,1901,74356.9,1260.77,41165.4,5,12,False,-0.1974304,5.51163,0.07418,0.0690293,0.474021,0.392283,-0.0001776283,0.0,0.0,0.0
1905,74477.5,12,0.0,5.769695,6,60.0639,0.07418,0.0723479,0.474021,0.410556,0.00060801,0.0,-0.00183207,-0.0634654,0.153993,0.253968,1.92149,11.5824,1905,74477.5,60.0639,41165.4,6,12,False,0.0,5.769695,0.07418,0.0723479,0.474021,0.410556,0.0004853331,0.0,0.0,0.0